{
  "resourceType": "Bundle",
  "entry": [
    {
      "fullUrl": "/Composition/stLgey3eB6Mv5nM7n",
      "resource": {
        "resourceType": "Composition",
        "identifier": {},
        "status": "preliminary",
        "type": {},
        "class": {},
        "subject": {
          "display": "Jessica Argonaut",
          "reference": "cN2pi4GEs82ZoyKW2"
        },
        "encounter": {
          "display": "",
          "reference": ""
        },
        "date": "<dateTime>",
        "author": [
          {
            "display": "Jessica Argonaut",
            "reference": "cN2pi4GEs82ZoyKW2"
          }
        ],
        "title": "Continuity of Care Document",
        "confidentiality": "0",
        "attester": [],
        "custodian": {
          "display": "",
          "reference": ""
        },
        "relatesTo": [],
        "event": [],
        "section": [
          {
            "reference": "/Condition/6Pb9Z5RMy265cuC8s"
          },
          {
            "reference": "/Condition/gKjnKTKGRByjFsQzZ"
          },
          {
            "reference": "/Condition/aqLgtPKc529vvKreq"
          },
          {
            "reference": "/Condition/TWNgCczz3nmg5Thjk"
          },
          {
            "reference": "/Immunization/HNJApyH5skRYBo2tk"
          },
          {
            "reference": "/Immunization/88QXqFs4x6kDW5Bku"
          },
          {
            "reference": "/MedicationOrder/dmaGRGBPn8GCnqeoE"
          },
          {
            "reference": "/MedicationOrder/c57xbPLyRdBhbGwQs"
          },
          {
            "reference": "/MedicationOrder/BqAC5HSTfQNsuy5mR"
          },
          {
            "reference": "/MedicationOrder/FbKKFEPajTkxv6xyJ"
          },
          {
            "reference": "/Observation/QpKgQDCL83dS7fZ5Q"
          },
          {
            "reference": "/Observation/whCGaBamrpakhnqfE"
          },
          {
            "reference": "/Observation/iRRZk9kX3CJi56ZXP"
          },
          {
            "reference": "/Observation/8t8btSe2nysJPjaff"
          },
          {
            "reference": "/Observation/qkagkNExvJ2C3B8kk"
          },
          {
            "reference": "/Observation/G9JAz3GgBZHnXBRbY"
          },
          {
            "reference": "/Observation/M7cXtDvTvncRpRRGc"
          },
          {
            "reference": "/Observation/CmLY8d8nErScZ8TQF"
          },
          {
            "reference": "/Observation/Px9gtKH3ZGeWxDXj9"
          },
          {
            "reference": "/Observation/7bfvwZazAGyGupXFC"
          },
          {
            "reference": "/Observation/RJM7HvYLFTgBw5nSq"
          },
          {
            "reference": "/Observation/xdTLgeeDAe4m3PNkd"
          },
          {
            "reference": "/Observation/6qwzz5bAPSGfkJCAQ"
          },
          {
            "reference": "/Observation/nb5HgRNbyKyfxFgef"
          },
          {
            "reference": "/Observation/YBKfvqpPEfpj8uXrT"
          },
          {
            "reference": "/Observation/QJAJeKkiTEEuDC8aQ"
          },
          {
            "reference": "/Observation/i9X9bZvvmRr6HKZPt"
          },
          {
            "reference": "/Person/GbqivFBcR3abfRDaW"
          },
          {
            "reference": "/Person/MZdiqjPJ9yHoEQLEb"
          },
          {
            "reference": "/Person/BqwAXoY7mYAdrqF75"
          },
          {
            "reference": "/Person/2XegT9QZqH8Ws8nLw"
          },
          {
            "reference": "/Person/nyHfmMQtWdEdJDfnZ"
          },
          {
            "reference": "/Procedure/rMdhmJoWNTfNahvbP"
          },
          {
            "reference": "/Procedure/zkgLaquFrwx6ka5ey"
          },
          {
            "reference": "/Procedure/jbBiX7YMeQ6KXd3py"
          }
        ]
      }
    },
    {
      "fullUrl": "/Condition/6Pb9Z5RMy265cuC8s",
      "resource": {
        "asserter": {
          "display": "Daren Estrada",
          "reference": "Practitioner/20"
        },
        "category": {
          "coding": [
            {
              "system": "http://hl7.org/fhir/condition-category",
              "code": "diagnosis"
            }
          ]
        },
        "clinicalStatus": "active",
        "dateRecorded": "2012-01-02",
        "code": {
          "text": "Asthma",
          "coding": [
            {
              "display": "Asthma",
              "system": "http://snomed.info/sct",
              "code": "195967001"
            }
          ]
        },
        "id": "1",
        "notes": "2 brief hospitalizations when a child, symptoms much improved as an adult",
        "verificationStatus": "confirmed",
        "onsetDateTime": "1985-09-09",
        "resourceType": "Condition",
        "_id": "6Pb9Z5RMy265cuC8s",
        "_document": {
          "asserter": {
            "display": "Daren Estrada",
            "reference": "Practitioner/20"
          },
          "category": {
            "coding": [
              {
                "system": "http://hl7.org/fhir/condition-category",
                "code": "diagnosis"
              }
            ]
          },
          "clinicalStatus": "active",
          "dateRecorded": "2012-01-02",
          "code": {
            "text": "Asthma",
            "coding": [
              {
                "display": "Asthma",
                "system": "http://snomed.info/sct",
                "code": "195967001"
              }
            ]
          },
          "id": "1",
          "notes": "2 brief hospitalizations when a child, symptoms much improved as an adult",
          "verificationStatus": "confirmed",
          "onsetDateTime": "1985-09-09",
          "resourceType": "Condition",
          "_id": "6Pb9Z5RMy265cuC8s"
        }
      }
    },
    {
      "fullUrl": "/Condition/gKjnKTKGRByjFsQzZ",
      "resource": {
        "asserter": {
          "display": "Daren Estrada",
          "reference": "Practitioner/20"
        },
        "category": {
          "coding": [
            {
              "system": "http://hl7.org/fhir/condition-category",
              "code": "diagnosis"
            }
          ]
        },
        "clinicalStatus": "active",
        "dateRecorded": "2012-01-02",
        "code": {
          "text": "Seasonal Allergic Rhinitis",
          "coding": [
            {
              "display": "Seasonal allergic rhinitis",
              "system": "http://snomed.info/sct",
              "code": "367498001"
            }
          ]
        },
        "id": "2",
        "notes": "Worse when visiting family in NC during the spring",
        "verificationStatus": "confirmed",
        "onsetDateTime": "1994-05-12",
        "resourceType": "Condition",
        "_id": "gKjnKTKGRByjFsQzZ",
        "_document": {
          "asserter": {
            "display": "Daren Estrada",
            "reference": "Practitioner/20"
          },
          "category": {
            "coding": [
              {
                "system": "http://hl7.org/fhir/condition-category",
                "code": "diagnosis"
              }
            ]
          },
          "clinicalStatus": "active",
          "dateRecorded": "2012-01-02",
          "code": {
            "text": "Seasonal Allergic Rhinitis",
            "coding": [
              {
                "display": "Seasonal allergic rhinitis",
                "system": "http://snomed.info/sct",
                "code": "367498001"
              }
            ]
          },
          "id": "2",
          "notes": "Worse when visiting family in NC during the spring",
          "verificationStatus": "confirmed",
          "onsetDateTime": "1994-05-12",
          "resourceType": "Condition",
          "_id": "gKjnKTKGRByjFsQzZ"
        }
      }
    },
    {
      "fullUrl": "/Condition/aqLgtPKc529vvKreq",
      "resource": {
        "asserter": {
          "display": "Daren Estrada",
          "reference": "Practitioner/20"
        },
        "category": {
          "coding": [
            {
              "system": "http://hl7.org/fhir/condition-category",
              "code": "diagnosis"
            }
          ]
        },
        "clinicalStatus": "active",
        "dateRecorded": "2016-11-25",
        "code": {
          "text": "Sinusitis",
          "coding": [
            {
              "display": "Sinusitis (disorder)",
              "system": "http://snomed.info/sct",
              "code": "36971009"
            }
          ]
        },
        "id": "4",
        "verificationStatus": "confirmed",
        "resourceType": "Condition",
        "_id": "aqLgtPKc529vvKreq",
        "_document": {
          "asserter": {
            "display": "Daren Estrada",
            "reference": "Practitioner/20"
          },
          "category": {
            "coding": [
              {
                "system": "http://hl7.org/fhir/condition-category",
                "code": "diagnosis"
              }
            ]
          },
          "clinicalStatus": "active",
          "dateRecorded": "2016-11-25",
          "code": {
            "text": "Sinusitis",
            "coding": [
              {
                "display": "Sinusitis (disorder)",
                "system": "http://snomed.info/sct",
                "code": "36971009"
              }
            ]
          },
          "id": "4",
          "verificationStatus": "confirmed",
          "resourceType": "Condition",
          "_id": "aqLgtPKc529vvKreq"
        }
      }
    },
    {
      "fullUrl": "/Condition/TWNgCczz3nmg5Thjk",
      "resource": {
        "asserter": {
          "display": "Troy Monken",
          "reference": "Practitioner/23"
        },
        "category": {
          "coding": [
            {
              "system": "http://hl7.org/fhir/condition-category",
              "code": "diagnosis"
            }
          ]
        },
        "clinicalStatus": "active",
        "dateRecorded": "2007-10-12",
        "code": {
          "text": "Hypothyroidism",
          "coding": [
            {
              "system": "http://snomed.info/sct",
              "code": "40930008"
            }
          ]
        },
        "id": "42467",
        "verificationStatus": "confirmed",
        "resourceType": "Condition",
        "_id": "TWNgCczz3nmg5Thjk",
        "_document": {
          "asserter": {
            "display": "Troy Monken",
            "reference": "Practitioner/23"
          },
          "category": {
            "coding": [
              {
                "system": "http://hl7.org/fhir/condition-category",
                "code": "diagnosis"
              }
            ]
          },
          "clinicalStatus": "active",
          "dateRecorded": "2007-10-12",
          "code": {
            "text": "Hypothyroidism",
            "coding": [
              {
                "system": "http://snomed.info/sct",
                "code": "40930008"
              }
            ]
          },
          "id": "42467",
          "verificationStatus": "confirmed",
          "resourceType": "Condition",
          "_id": "TWNgCczz3nmg5Thjk"
        }
      }
    },
    {
      "fullUrl": "/Immunization/HNJApyH5skRYBo2tk",
      "resource": {
        "vaccineCode": {
          "text": "Influenza",
          "coding": [
            {
              "system": "CVX",
              "code": "135"
            }
          ]
        },
        "id": "3",
        "resourceType": "Immunization",
        "encounter": {
          "reference": "Encounter/129837645"
        },
        "requester": {
          "display": "Altick Kelly",
          "reference": "Practitioner/8"
        },
        "date": "2017-10-18",
        "_id": "HNJApyH5skRYBo2tk",
        "_document": {
          "vaccineCode": {
            "text": "Influenza",
            "coding": [
              {
                "system": "CVX",
                "code": "135"
              }
            ]
          },
          "id": "3",
          "resourceType": "Immunization",
          "encounter": {
            "reference": "Encounter/129837645"
          },
          "requester": {
            "display": "Altick Kelly",
            "reference": "Practitioner/8"
          },
          "date": "2017-10-18",
          "_id": "HNJApyH5skRYBo2tk"
        }
      }
    },
    {
      "fullUrl": "/Immunization/88QXqFs4x6kDW5Bku",
      "resource": {
        "vaccineCode": {
          "text": "DTaP",
          "coding": [
            {
              "system": "CVX",
              "code": "115"
            }
          ]
        },
        "id": "19",
        "resourceType": "Immunization",
        "encounter": {
          "reference": "Encounter/129837645"
        },
        "requester": {
          "display": "Altick Kelly",
          "reference": "Practitioner/8"
        },
        "date": "2017-10-18",
        "_id": "88QXqFs4x6kDW5Bku",
        "_document": {
          "vaccineCode": {
            "text": "DTaP",
            "coding": [
              {
                "system": "CVX",
                "code": "115"
              }
            ]
          },
          "id": "19",
          "resourceType": "Immunization",
          "encounter": {
            "reference": "Encounter/129837645"
          },
          "requester": {
            "display": "Altick Kelly",
            "reference": "Practitioner/8"
          },
          "date": "2017-10-18",
          "_id": "88QXqFs4x6kDW5Bku"
        }
      }
    },
    {
      "fullUrl": "/MedicationOrder/dmaGRGBPn8GCnqeoE",
      "resource": {
        "status": "active",
        "note": "Please let me know if you need to use this more than three times per day",
        "id": "24",
        "medicationCodeableConcept": {
          "text": "Albuterol HFA 90 mcg",
          "coding": [
            {
              "system": "http://www.nlm.nih.gov/research/umls/rxnorm/",
              "code": "329498"
            }
          ]
        },
        "patient": {
          "display": "Candace Salinas",
          "reference": "Patient/1"
        },
        "prescriber": {
          "display": "Daren Estrada",
          "reference": "Practitioner/20"
        },
        "dateWritten": "1985-10-11",
        "resourceType": "MedicationOrder",
        "dosageInstruction": [
          {
            "text": "2 puffs every 2-4 hours"
          }
        ],
        "_id": "dmaGRGBPn8GCnqeoE",
        "_document": {
          "status": "active",
          "note": "Please let me know if you need to use this more than three times per day",
          "id": "24",
          "medicationCodeableConcept": {
            "text": "Albuterol HFA 90 mcg",
            "coding": [
              {
                "system": "http://www.nlm.nih.gov/research/umls/rxnorm/",
                "code": "329498"
              }
            ]
          },
          "patient": {
            "display": "Candace Salinas",
            "reference": "Patient/1"
          },
          "prescriber": {
            "display": "Daren Estrada",
            "reference": "Practitioner/20"
          },
          "dateWritten": "1985-10-11",
          "resourceType": "MedicationOrder",
          "dosageInstruction": [
            {
              "text": "2 puffs every 2-4 hours"
            }
          ],
          "_id": "dmaGRGBPn8GCnqeoE"
        }
      }
    },
    {
      "fullUrl": "/MedicationOrder/c57xbPLyRdBhbGwQs",
      "resource": {
        "status": "active",
        "note": "You only need to take this medication during pollen season",
        "id": "18",
        "medicationCodeableConcept": {
          "text": "Loratadine 10 mg",
          "coding": [
            {
              "display": "Loratadine 10 MG Oral Capsule",
              "system": "http://www.nlm.nih.gov/research/umls/rxnorm/",
              "code": "316167"
            }
          ]
        },
        "patient": {
          "display": "Candace Salinas",
          "reference": "Patient/1"
        },
        "prescriber": {
          "display": "Daren Estrada",
          "reference": "Practitioner/20"
        },
        "dateWritten": "1994-02-26",
        "resourceType": "MedicationOrder",
        "dosageInstruction": [
          {
            "text": "Once Daily"
          }
        ],
        "_id": "c57xbPLyRdBhbGwQs",
        "_document": {
          "status": "active",
          "note": "You only need to take this medication during pollen season",
          "id": "18",
          "medicationCodeableConcept": {
            "text": "Loratadine 10 mg",
            "coding": [
              {
                "display": "Loratadine 10 MG Oral Capsule",
                "system": "http://www.nlm.nih.gov/research/umls/rxnorm/",
                "code": "316167"
              }
            ]
          },
          "patient": {
            "display": "Candace Salinas",
            "reference": "Patient/1"
          },
          "prescriber": {
            "display": "Daren Estrada",
            "reference": "Practitioner/20"
          },
          "dateWritten": "1994-02-26",
          "resourceType": "MedicationOrder",
          "dosageInstruction": [
            {
              "text": "Once Daily"
            }
          ],
          "_id": "c57xbPLyRdBhbGwQs"
        }
      }
    },
    {
      "fullUrl": "/MedicationOrder/BqAC5HSTfQNsuy5mR",
      "resource": {
        "status": "active",
        "note": "Over the counter",
        "id": "13",
        "medicationCodeableConcept": {
          "text": "Prenatal vitamins (with folate)",
          "coding": [
            {
              "system": "http://www.nlm.nih.gov/research/umls/rxnorm/"
            }
          ]
        },
        "patient": {
          "reference": "Patient/100"
        },
        "prescriber": {
          "display": "Altick Kelly",
          "reference": "Practitioner/8"
        },
        "dateWritten": "2017-10-20",
        "resourceType": "MedicationOrder",
        "dosageInstruction": [
          {
            "text": "One tablet by mouth daily",
            "timing": {
              "repeat": {
                "boundsPeriod": {
                  "start": "2017-10-20"
                }
              }
            }
          }
        ],
        "_id": "BqAC5HSTfQNsuy5mR",
        "_document": {
          "status": "active",
          "note": "Over the counter",
          "id": "13",
          "medicationCodeableConcept": {
            "text": "Prenatal vitamins (with folate)",
            "coding": [
              {
                "system": "http://www.nlm.nih.gov/research/umls/rxnorm/"
              }
            ]
          },
          "patient": {
            "reference": "Patient/100"
          },
          "prescriber": {
            "display": "Altick Kelly",
            "reference": "Practitioner/8"
          },
          "dateWritten": "2017-10-20",
          "resourceType": "MedicationOrder",
          "dosageInstruction": [
            {
              "text": "One tablet by mouth daily",
              "timing": {
                "repeat": {
                  "boundsPeriod": {
                    "start": "2017-10-20"
                  }
                }
              }
            }
          ],
          "_id": "BqAC5HSTfQNsuy5mR"
        }
      }
    },
    {
      "fullUrl": "/MedicationOrder/FbKKFEPajTkxv6xyJ",
      "resource": {
        "status": "active",
        "note": "Take on empty stomach at least 30 minutes before eating",
        "id": "23535",
        "medicationCodeableConcept": {
          "text": "Levothyroxine 75 mcg",
          "coding": [
            {
              "system": "http://www.nlm.nih.gov/research/umls/rxnorm/",
              "code": "903736"
            }
          ]
        },
        "patient": {
          "display": "Salinas, Candace",
          "reference": "Patient/190"
        },
        "prescriber": {
          "display": "Troy Monken",
          "reference": "Practitioner/24763"
        },
        "dateWritten": "2008-01-03T00:00:00-08:00",
        "resourceType": "MedicationOrder",
        "dosageInstruction": [
          {
            "text": "Once Daily",
            "timing": {
              "repeat": {
                "boundsPeriod": {
                  "start": "2008-01-03"
                }
              }
            }
          }
        ],
        "_id": "FbKKFEPajTkxv6xyJ",
        "_document": {
          "status": "active",
          "note": "Take on empty stomach at least 30 minutes before eating",
          "id": "23535",
          "medicationCodeableConcept": {
            "text": "Levothyroxine 75 mcg",
            "coding": [
              {
                "system": "http://www.nlm.nih.gov/research/umls/rxnorm/",
                "code": "903736"
              }
            ]
          },
          "patient": {
            "display": "Salinas, Candace",
            "reference": "Patient/190"
          },
          "prescriber": {
            "display": "Troy Monken",
            "reference": "Practitioner/24763"
          },
          "dateWritten": "2008-01-03T00:00:00-08:00",
          "resourceType": "MedicationOrder",
          "dosageInstruction": [
            {
              "text": "Once Daily",
              "timing": {
                "repeat": {
                  "boundsPeriod": {
                    "start": "2008-01-03"
                  }
                }
              }
            }
          ],
          "_id": "FbKKFEPajTkxv6xyJ"
        }
      }
    },
    {
      "fullUrl": "/Observation/QpKgQDCL83dS7fZ5Q",
      "resource": {
        "category": {
          "text": "Laboratory",
          "coding": [
            {
              "system": "http://hl7.org/fhir/observation-category",
              "code": "laboratory"
            }
          ]
        },
        "issued": "2017-03-18T00:00:00Z",
        "status": "final",
        "id": "12",
        "code": {
          "text": "Triglycerides",
          "coding": [
            {
              "system": "http://loinc.org",
              "code": "3043-7"
            }
          ]
        },
        "encounter": {
          "reference": "Encounter/355"
        },
        "referenceRange": [
          {
            "low": {
              "code": "mg/dL",
              "system": "http://unitsofmeasure.org",
              "value": 10,
              "unit": "mg/dL"
            },
            "high": {
              "code": "mg/dL",
              "system": "http://unitsofmeasure.org",
              "value": 250,
              "unit": "mg/dL"
            },
            "text": "10 to 250 mg/dL"
          }
        ],
        "valueQuantity": {
          "code": "mg/dL",
          "system": "http://unitsofmeasure.org",
          "value": 86,
          "unit": "mg/dL"
        },
        "resourceType": "Observation",
        "_id": "QpKgQDCL83dS7fZ5Q",
        "_document": {
          "category": {
            "text": "Laboratory",
            "coding": [
              {
                "system": "http://hl7.org/fhir/observation-category",
                "code": "laboratory"
              }
            ]
          },
          "issued": "2017-03-18T00:00:00Z",
          "status": "final",
          "id": "12",
          "code": {
            "text": "Triglycerides",
            "coding": [
              {
                "system": "http://loinc.org",
                "code": "3043-7"
              }
            ]
          },
          "encounter": {
            "reference": "Encounter/355"
          },
          "referenceRange": [
            {
              "low": {
                "code": "mg/dL",
                "system": "http://unitsofmeasure.org",
                "value": 10,
                "unit": "mg/dL"
              },
              "high": {
                "code": "mg/dL",
                "system": "http://unitsofmeasure.org",
                "value": 250,
                "unit": "mg/dL"
              },
              "text": "10 to 250 mg/dL"
            }
          ],
          "valueQuantity": {
            "code": "mg/dL",
            "system": "http://unitsofmeasure.org",
            "value": 86,
            "unit": "mg/dL"
          },
          "resourceType": "Observation",
          "_id": "QpKgQDCL83dS7fZ5Q"
        }
      }
    },
    {
      "fullUrl": "/Observation/whCGaBamrpakhnqfE",
      "resource": {
        "category": {
          "text": "Laboratory",
          "coding": [
            {
              "system": "http://hl7.org/fhir/observation-category",
              "code": "laboratory"
            }
          ]
        },
        "issued": "2017-03-18T00:00:00Z",
        "status": "final",
        "id": "21",
        "code": {
          "text": "Cholesterol HDL",
          "coding": [
            {
              "system": "http://loinc.org",
              "code": "2085-9"
            }
          ]
        },
        "encounter": {
          "reference": "Encounter/355"
        },
        "referenceRange": [
          {
            "low": {
              "code": "mg/dL",
              "system": "http://unitsofmeasure.org",
              "value": 35,
              "unit": "mg/dL"
            },
            "high": {
              "code": "mg/dL",
              "system": "http://unitsofmeasure.org",
              "value": 59,
              "unit": "mg/dL"
            },
            "text": "35 to 59 mg/dL"
          }
        ],
        "valueQuantity": {
          "code": "mg/dL",
          "system": "http://unitsofmeasure.org",
          "value": 53.5,
          "unit": "mg/dL"
        },
        "resourceType": "Observation",
        "_id": "whCGaBamrpakhnqfE",
        "_document": {
          "category": {
            "text": "Laboratory",
            "coding": [
              {
                "system": "http://hl7.org/fhir/observation-category",
                "code": "laboratory"
              }
            ]
          },
          "issued": "2017-03-18T00:00:00Z",
          "status": "final",
          "id": "21",
          "code": {
            "text": "Cholesterol HDL",
            "coding": [
              {
                "system": "http://loinc.org",
                "code": "2085-9"
              }
            ]
          },
          "encounter": {
            "reference": "Encounter/355"
          },
          "referenceRange": [
            {
              "low": {
                "code": "mg/dL",
                "system": "http://unitsofmeasure.org",
                "value": 35,
                "unit": "mg/dL"
              },
              "high": {
                "code": "mg/dL",
                "system": "http://unitsofmeasure.org",
                "value": 59,
                "unit": "mg/dL"
              },
              "text": "35 to 59 mg/dL"
            }
          ],
          "valueQuantity": {
            "code": "mg/dL",
            "system": "http://unitsofmeasure.org",
            "value": 53.5,
            "unit": "mg/dL"
          },
          "resourceType": "Observation",
          "_id": "whCGaBamrpakhnqfE"
        }
      }
    },
    {
      "fullUrl": "/Observation/iRRZk9kX3CJi56ZXP",
      "resource": {
        "category": {
          "text": "Laboratory",
          "coding": [
            {
              "system": "http://hl7.org/fhir/observation-category",
              "code": "laboratory"
            }
          ]
        },
        "issued": "2017-10-18T00:00:00Z",
        "status": "final",
        "id": "1",
        "code": {
          "text": "LDL-cholesterol",
          "coding": [
            {
              "system": "http://loinc.org",
              "code": "2089-1"
            }
          ]
        },
        "referenceRange": [
          {
            "low": {
              "code": "mg/dL",
              "system": "http://unitsofmeasure.org",
              "value": 50,
              "unit": "mg/dL"
            },
            "high": {
              "code": "mg/dL",
              "system": "http://unitsofmeasure.org",
              "value": 178,
              "unit": "mg/dL"
            },
            "text": "50 to 178 mg/dL"
          }
        ],
        "valueQuantity": {
          "code": "mg/dL",
          "system": "http://unitsofmeasure.org",
          "value": 113.3,
          "unit": "mg/dL"
        },
        "resourceType": "Observation",
        "_id": "iRRZk9kX3CJi56ZXP",
        "_document": {
          "category": {
            "text": "Laboratory",
            "coding": [
              {
                "system": "http://hl7.org/fhir/observation-category",
                "code": "laboratory"
              }
            ]
          },
          "issued": "2017-10-18T00:00:00Z",
          "status": "final",
          "id": "1",
          "code": {
            "text": "LDL-cholesterol",
            "coding": [
              {
                "system": "http://loinc.org",
                "code": "2089-1"
              }
            ]
          },
          "referenceRange": [
            {
              "low": {
                "code": "mg/dL",
                "system": "http://unitsofmeasure.org",
                "value": 50,
                "unit": "mg/dL"
              },
              "high": {
                "code": "mg/dL",
                "system": "http://unitsofmeasure.org",
                "value": 178,
                "unit": "mg/dL"
              },
              "text": "50 to 178 mg/dL"
            }
          ],
          "valueQuantity": {
            "code": "mg/dL",
            "system": "http://unitsofmeasure.org",
            "value": 113.3,
            "unit": "mg/dL"
          },
          "resourceType": "Observation",
          "_id": "iRRZk9kX3CJi56ZXP"
        }
      }
    },
    {
      "fullUrl": "/Observation/8t8btSe2nysJPjaff",
      "resource": {
        "category": {
          "text": "Laboratory",
          "coding": [
            {
              "system": "http://hl7.org/fhir/observation-category",
              "code": "laboratory"
            }
          ]
        },
        "issued": "2017-10-18T00:00:00Z",
        "status": "final",
        "id": "2738664",
        "code": {
          "text": "Blood Glucose",
          "coding": [
            {
              "system": "http://loinc.org",
              "code": "2339-0"
            }
          ]
        },
        "encounter": {
          "reference": "Encounter/129837645"
        },
        "referenceRange": [
          {
            "low": {
              "code": "mg/dL",
              "system": "http://unitsofmeasure.org",
              "value": 61,
              "unit": "mg/dL"
            },
            "high": {
              "code": "mg/dL",
              "system": "http://unitsofmeasure.org",
              "value": 100,
              "unit": "mg/dL"
            },
            "text": "61-100 mg/dL"
          }
        ],
        "valueQuantity": {
          "code": "mg/dL",
          "system": "http://unitsofmeasure.org",
          "value": 60,
          "unit": "mg/dL"
        },
        "resourceType": "Observation",
        "_id": "8t8btSe2nysJPjaff",
        "_document": {
          "category": {
            "text": "Laboratory",
            "coding": [
              {
                "system": "http://hl7.org/fhir/observation-category",
                "code": "laboratory"
              }
            ]
          },
          "issued": "2017-10-18T00:00:00Z",
          "status": "final",
          "id": "2738664",
          "code": {
            "text": "Blood Glucose",
            "coding": [
              {
                "system": "http://loinc.org",
                "code": "2339-0"
              }
            ]
          },
          "encounter": {
            "reference": "Encounter/129837645"
          },
          "referenceRange": [
            {
              "low": {
                "code": "mg/dL",
                "system": "http://unitsofmeasure.org",
                "value": 61,
                "unit": "mg/dL"
              },
              "high": {
                "code": "mg/dL",
                "system": "http://unitsofmeasure.org",
                "value": 100,
                "unit": "mg/dL"
              },
              "text": "61-100 mg/dL"
            }
          ],
          "valueQuantity": {
            "code": "mg/dL",
            "system": "http://unitsofmeasure.org",
            "value": 60,
            "unit": "mg/dL"
          },
          "resourceType": "Observation",
          "_id": "8t8btSe2nysJPjaff"
        }
      }
    },
    {
      "fullUrl": "/Observation/qkagkNExvJ2C3B8kk",
      "resource": {
        "category": {
          "text": "Laboratory",
          "coding": [
            {
              "system": "http://hl7.org/fhir/observation-category",
              "code": "laboratory"
            }
          ]
        },
        "issued": "2017-10-18T00:00:00Z",
        "status": "final",
        "id": "11",
        "code": {
          "text": "Total cholesterol",
          "coding": [
            {
              "system": "http://loinc.org",
              "code": "2093-3"
            }
          ]
        },
        "referenceRange": [
          {
            "low": {
              "code": "mg/dL",
              "system": "http://unitsofmeasure.org",
              "value": 120,
              "unit": "mg/dL"
            },
            "high": {
              "code": "mg/dL",
              "system": "http://unitsofmeasure.org",
              "value": 220,
              "unit": "mg/dL"
            },
            "text": "120 to 220 mg/dL"
          }
        ],
        "valueQuantity": {
          "code": "mg/dL",
          "system": "http://unitsofmeasure.org",
          "value": 184,
          "unit": "mg/dL"
        },
        "resourceType": "Observation",
        "_id": "qkagkNExvJ2C3B8kk",
        "_document": {
          "category": {
            "text": "Laboratory",
            "coding": [
              {
                "system": "http://hl7.org/fhir/observation-category",
                "code": "laboratory"
              }
            ]
          },
          "issued": "2017-10-18T00:00:00Z",
          "status": "final",
          "id": "11",
          "code": {
            "text": "Total cholesterol",
            "coding": [
              {
                "system": "http://loinc.org",
                "code": "2093-3"
              }
            ]
          },
          "referenceRange": [
            {
              "low": {
                "code": "mg/dL",
                "system": "http://unitsofmeasure.org",
                "value": 120,
                "unit": "mg/dL"
              },
              "high": {
                "code": "mg/dL",
                "system": "http://unitsofmeasure.org",
                "value": 220,
                "unit": "mg/dL"
              },
              "text": "120 to 220 mg/dL"
            }
          ],
          "valueQuantity": {
            "code": "mg/dL",
            "system": "http://unitsofmeasure.org",
            "value": 184,
            "unit": "mg/dL"
          },
          "resourceType": "Observation",
          "_id": "qkagkNExvJ2C3B8kk"
        }
      }
    },
    {
      "fullUrl": "/Observation/G9JAz3GgBZHnXBRbY",
      "resource": {
        "category": {
          "text": "Laboratory",
          "coding": [
            {
              "system": "http://hl7.org/fhir/observation-category",
              "code": "laboratory"
            }
          ]
        },
        "issued": "2007-09-04T14:15:00+06:00",
        "status": "final",
        "id": "6",
        "code": {
          "text": "Thyroxine (T4)",
          "coding": [
            {
              "system": "http://loinc.org",
              "code": "3026-2"
            }
          ]
        },
        "referenceRange": [
          {
            "low": {
              "code": "µg/dL",
              "system": "http://unitsofmeasure.org",
              "value": 4.5,
              "unit": "µg/dL"
            },
            "high": {
              "code": "µg/dL",
              "system": "http://unitsofmeasure.org",
              "value": 12,
              "unit": "µg/dL"
            },
            "text": "4.5 - 12 µg/dL"
          }
        ],
        "valueQuantity": {
          "code": "µg/dL",
          "system": "http://unitsofmeasure.org",
          "value": 9.8,
          "unit": "µg/dL"
        },
        "resourceType": "Observation",
        "_id": "G9JAz3GgBZHnXBRbY",
        "_document": {
          "category": {
            "text": "Laboratory",
            "coding": [
              {
                "system": "http://hl7.org/fhir/observation-category",
                "code": "laboratory"
              }
            ]
          },
          "issued": "2007-09-04T14:15:00+06:00",
          "status": "final",
          "id": "6",
          "code": {
            "text": "Thyroxine (T4)",
            "coding": [
              {
                "system": "http://loinc.org",
                "code": "3026-2"
              }
            ]
          },
          "referenceRange": [
            {
              "low": {
                "code": "µg/dL",
                "system": "http://unitsofmeasure.org",
                "value": 4.5,
                "unit": "µg/dL"
              },
              "high": {
                "code": "µg/dL",
                "system": "http://unitsofmeasure.org",
                "value": 12,
                "unit": "µg/dL"
              },
              "text": "4.5 - 12 µg/dL"
            }
          ],
          "valueQuantity": {
            "code": "µg/dL",
            "system": "http://unitsofmeasure.org",
            "value": 9.8,
            "unit": "µg/dL"
          },
          "resourceType": "Observation",
          "_id": "G9JAz3GgBZHnXBRbY"
        }
      }
    },
    {
      "fullUrl": "/Observation/M7cXtDvTvncRpRRGc",
      "resource": {
        "category": {
          "text": "Laboratory",
          "coding": [
            {
              "system": "http://hl7.org/fhir/observation-category",
              "code": "laboratory"
            }
          ]
        },
        "issued": "2007-09-04T14:15:00+06:00",
        "status": "final",
        "id": "22",
        "code": {
          "text": "TSH",
          "coding": [
            {
              "system": "http://loinc.org",
              "code": "3016-3"
            }
          ]
        },
        "referenceRange": [
          {
            "low": {
              "code": "µU/mL",
              "system": "http://unitsofmeasure.org",
              "value": 0.35,
              "unit": "µU/mL"
            },
            "high": {
              "code": "µU/mL",
              "system": "http://unitsofmeasure.org",
              "value": 5.5,
              "unit": "µU/mL"
            },
            "text": "0.350 to 5.500 µU/mL"
          }
        ],
        "valueQuantity": {
          "code": "µU/mL",
          "system": "http://unitsofmeasure.org",
          "value": 3.915,
          "unit": "µU/mL"
        },
        "resourceType": "Observation",
        "_id": "M7cXtDvTvncRpRRGc",
        "_document": {
          "category": {
            "text": "Laboratory",
            "coding": [
              {
                "system": "http://hl7.org/fhir/observation-category",
                "code": "laboratory"
              }
            ]
          },
          "issued": "2007-09-04T14:15:00+06:00",
          "status": "final",
          "id": "22",
          "code": {
            "text": "TSH",
            "coding": [
              {
                "system": "http://loinc.org",
                "code": "3016-3"
              }
            ]
          },
          "referenceRange": [
            {
              "low": {
                "code": "µU/mL",
                "system": "http://unitsofmeasure.org",
                "value": 0.35,
                "unit": "µU/mL"
              },
              "high": {
                "code": "µU/mL",
                "system": "http://unitsofmeasure.org",
                "value": 5.5,
                "unit": "µU/mL"
              },
              "text": "0.350 to 5.500 µU/mL"
            }
          ],
          "valueQuantity": {
            "code": "µU/mL",
            "system": "http://unitsofmeasure.org",
            "value": 3.915,
            "unit": "µU/mL"
          },
          "resourceType": "Observation",
          "_id": "M7cXtDvTvncRpRRGc"
        }
      }
    },
    {
      "fullUrl": "/Observation/CmLY8d8nErScZ8TQF",
      "resource": {
        "category": {
          "text": "Vital Signs",
          "coding": [
            {
              "system": "http://hl7.org/fhir/observation-category",
              "code": "vital-signs"
            }
          ]
        },
        "issued": "2017-03-18T00:00:00Z",
        "status": "final",
        "id": "4",
        "code": {
          "text": "BMI-body mass index",
          "coding": [
            {
              "system": "http://loinc.org",
              "code": "39156-5"
            }
          ]
        },
        "encounter": {
          "reference": "Encounter/355"
        },
        "valueQuantity": {
          "code": "kg/m^2",
          "system": "http://unitsofmeasure.org",
          "value": 26.2,
          "unit": "kg/m^2"
        },
        "resourceType": "Observation",
        "_id": "CmLY8d8nErScZ8TQF",
        "_document": {
          "category": {
            "text": "Vital Signs",
            "coding": [
              {
                "system": "http://hl7.org/fhir/observation-category",
                "code": "vital-signs"
              }
            ]
          },
          "issued": "2017-03-18T00:00:00Z",
          "status": "final",
          "id": "4",
          "code": {
            "text": "BMI-body mass index",
            "coding": [
              {
                "system": "http://loinc.org",
                "code": "39156-5"
              }
            ]
          },
          "encounter": {
            "reference": "Encounter/355"
          },
          "valueQuantity": {
            "code": "kg/m^2",
            "system": "http://unitsofmeasure.org",
            "value": 26.2,
            "unit": "kg/m^2"
          },
          "resourceType": "Observation",
          "_id": "CmLY8d8nErScZ8TQF"
        }
      }
    },
    {
      "fullUrl": "/Observation/Px9gtKH3ZGeWxDXj9",
      "resource": {
        "category": {
          "text": "Vital Signs",
          "coding": [
            {
              "system": "http://hl7.org/fhir/observation-category",
              "code": "vital-signs"
            }
          ]
        },
        "issued": "2017-03-18T00:00:00Z",
        "status": "final",
        "id": "7",
        "code": {
          "text": "Pulse",
          "coding": [
            {
              "system": "http://loinc.org",
              "code": "8867-4"
            }
          ]
        },
        "encounter": {
          "reference": "Encounter/355"
        },
        "valueQuantity": {
          "code": "/min",
          "system": "http://unitsofmeasure.org",
          "value": 77,
          "unit": "/min"
        },
        "resourceType": "Observation",
        "_id": "Px9gtKH3ZGeWxDXj9",
        "_document": {
          "category": {
            "text": "Vital Signs",
            "coding": [
              {
                "system": "http://hl7.org/fhir/observation-category",
                "code": "vital-signs"
              }
            ]
          },
          "issued": "2017-03-18T00:00:00Z",
          "status": "final",
          "id": "7",
          "code": {
            "text": "Pulse",
            "coding": [
              {
                "system": "http://loinc.org",
                "code": "8867-4"
              }
            ]
          },
          "encounter": {
            "reference": "Encounter/355"
          },
          "valueQuantity": {
            "code": "/min",
            "system": "http://unitsofmeasure.org",
            "value": 77,
            "unit": "/min"
          },
          "resourceType": "Observation",
          "_id": "Px9gtKH3ZGeWxDXj9"
        }
      }
    },
    {
      "fullUrl": "/Observation/7bfvwZazAGyGupXFC",
      "resource": {
        "category": {
          "text": "Vital Signs",
          "coding": [
            {
              "system": "http://hl7.org/fhir/observation-category",
              "code": "vital-signs"
            }
          ]
        },
        "issued": "2017-03-18T00:00:00Z",
        "status": "final",
        "id": "14",
        "code": {
          "text": "Temperature",
          "coding": [
            {
              "system": "http://loinc.org",
              "code": "8310-5"
            }
          ]
        },
        "encounter": {
          "reference": "Encounter/355"
        },
        "valueQuantity": {
          "code": "Cel",
          "system": "http://unitsofmeasure.org",
          "value": 37.6,
          "unit": "Cel"
        },
        "resourceType": "Observation",
        "_id": "7bfvwZazAGyGupXFC",
        "_document": {
          "category": {
            "text": "Vital Signs",
            "coding": [
              {
                "system": "http://hl7.org/fhir/observation-category",
                "code": "vital-signs"
              }
            ]
          },
          "issued": "2017-03-18T00:00:00Z",
          "status": "final",
          "id": "14",
          "code": {
            "text": "Temperature",
            "coding": [
              {
                "system": "http://loinc.org",
                "code": "8310-5"
              }
            ]
          },
          "encounter": {
            "reference": "Encounter/355"
          },
          "valueQuantity": {
            "code": "Cel",
            "system": "http://unitsofmeasure.org",
            "value": 37.6,
            "unit": "Cel"
          },
          "resourceType": "Observation",
          "_id": "7bfvwZazAGyGupXFC"
        }
      }
    },
    {
      "fullUrl": "/Observation/RJM7HvYLFTgBw5nSq",
      "resource": {
        "category": {
          "text": "Vital Signs",
          "coding": [
            {
              "system": "http://hl7.org/fhir/observation-category",
              "code": "vital-signs"
            }
          ]
        },
        "issued": "2017-10-18T00:00:00Z",
        "status": "final",
        "id": "2634785",
        "code": {
          "text": "BP-blood pressure",
          "coding": [
            {
              "system": "http://loinc.org",
              "code": "55284-4"
            }
          ]
        },
        "component": [
          {
            "valueQuantity": {
              "code": "mm[Hg]",
              "system": "http://unitsofmeasure.org",
              "value": 110,
              "unit": "mm[Hg]"
            },
            "code": {
              "text": "Systolic blood pressure",
              "coding": [
                {
                  "display": "Systolic blood pressure",
                  "system": "http://loinc.org",
                  "code": "8480-6"
                }
              ]
            }
          },
          {
            "valueQuantity": {
              "code": "mm[Hg]",
              "system": "http://unitsofmeasure.org",
              "value": 70,
              "unit": "mm[Hg]"
            },
            "code": {
              "text": "Diastolic blood pressure",
              "coding": [
                {
                  "display": "Diastolic blood pressure",
                  "system": "http://loinc.org",
                  "code": "8462-4"
                }
              ]
            }
          }
        ],
        "encounter": {
          "reference": "Encounter/129837645"
        },
        "resourceType": "Observation",
        "_id": "RJM7HvYLFTgBw5nSq",
        "_document": {
          "category": {
            "text": "Vital Signs",
            "coding": [
              {
                "system": "http://hl7.org/fhir/observation-category",
                "code": "vital-signs"
              }
            ]
          },
          "issued": "2017-10-18T00:00:00Z",
          "status": "final",
          "id": "2634785",
          "code": {
            "text": "BP-blood pressure",
            "coding": [
              {
                "system": "http://loinc.org",
                "code": "55284-4"
              }
            ]
          },
          "component": [
            {
              "valueQuantity": {
                "code": "mm[Hg]",
                "system": "http://unitsofmeasure.org",
                "value": 110,
                "unit": "mm[Hg]"
              },
              "code": {
                "text": "Systolic blood pressure",
                "coding": [
                  {
                    "display": "Systolic blood pressure",
                    "system": "http://loinc.org",
                    "code": "8480-6"
                  }
                ]
              }
            },
            {
              "valueQuantity": {
                "code": "mm[Hg]",
                "system": "http://unitsofmeasure.org",
                "value": 70,
                "unit": "mm[Hg]"
              },
              "code": {
                "text": "Diastolic blood pressure",
                "coding": [
                  {
                    "display": "Diastolic blood pressure",
                    "system": "http://loinc.org",
                    "code": "8462-4"
                  }
                ]
              }
            }
          ],
          "encounter": {
            "reference": "Encounter/129837645"
          },
          "resourceType": "Observation",
          "_id": "RJM7HvYLFTgBw5nSq"
        }
      }
    },
    {
      "fullUrl": "/Observation/xdTLgeeDAe4m3PNkd",
      "resource": {
        "category": {
          "text": "Vital Signs",
          "coding": [
            {
              "system": "http://hl7.org/fhir/observation-category",
              "code": "vital-signs"
            }
          ]
        },
        "issued": "2017-10-18T00:00:00Z",
        "status": "final",
        "id": "15458",
        "code": {
          "text": "Weight",
          "coding": [
            {
              "system": "http://loinc.org",
              "code": "29463-7"
            }
          ]
        },
        "encounter": {
          "reference": "Encounter/129837645"
        },
        "valueQuantity": {
          "code": "[lb_av]",
          "system": "http://unitsofmeasure.org",
          "value": 155,
          "unit": "[lb_av]"
        },
        "resourceType": "Observation",
        "_id": "xdTLgeeDAe4m3PNkd",
        "_document": {
          "category": {
            "text": "Vital Signs",
            "coding": [
              {
                "system": "http://hl7.org/fhir/observation-category",
                "code": "vital-signs"
              }
            ]
          },
          "issued": "2017-10-18T00:00:00Z",
          "status": "final",
          "id": "15458",
          "code": {
            "text": "Weight",
            "coding": [
              {
                "system": "http://loinc.org",
                "code": "29463-7"
              }
            ]
          },
          "encounter": {
            "reference": "Encounter/129837645"
          },
          "valueQuantity": {
            "code": "[lb_av]",
            "system": "http://unitsofmeasure.org",
            "value": 155,
            "unit": "[lb_av]"
          },
          "resourceType": "Observation",
          "_id": "xdTLgeeDAe4m3PNkd"
        }
      }
    },
    {
      "fullUrl": "/Observation/6qwzz5bAPSGfkJCAQ",
      "resource": {
        "category": {
          "text": "Vital Signs",
          "coding": [
            {
              "system": "http://hl7.org/fhir/observation-category",
              "code": "vital-signs"
            }
          ]
        },
        "issued": "2017-10-18T00:00:00Z",
        "status": "final",
        "id": "72354778",
        "code": {
          "text": "Pulse",
          "coding": [
            {
              "system": "http://loinc.org",
              "code": "8867-4"
            }
          ]
        },
        "encounter": {
          "reference": "Encounter/129837645"
        },
        "valueQuantity": {
          "code": "/min",
          "system": "http://unitsofmeasure.org",
          "value": 72,
          "unit": "/min"
        },
        "resourceType": "Observation",
        "_id": "6qwzz5bAPSGfkJCAQ",
        "_document": {
          "category": {
            "text": "Vital Signs",
            "coding": [
              {
                "system": "http://hl7.org/fhir/observation-category",
                "code": "vital-signs"
              }
            ]
          },
          "issued": "2017-10-18T00:00:00Z",
          "status": "final",
          "id": "72354778",
          "code": {
            "text": "Pulse",
            "coding": [
              {
                "system": "http://loinc.org",
                "code": "8867-4"
              }
            ]
          },
          "encounter": {
            "reference": "Encounter/129837645"
          },
          "valueQuantity": {
            "code": "/min",
            "system": "http://unitsofmeasure.org",
            "value": 72,
            "unit": "/min"
          },
          "resourceType": "Observation",
          "_id": "6qwzz5bAPSGfkJCAQ"
        }
      }
    },
    {
      "fullUrl": "/Observation/nb5HgRNbyKyfxFgef",
      "resource": {
        "category": {
          "text": "Vital Signs",
          "coding": [
            {
              "system": "http://hl7.org/fhir/observation-category",
              "code": "vital-signs"
            }
          ]
        },
        "issued": "2017-10-18T00:00:00Z",
        "status": "final",
        "id": "162467",
        "code": {
          "text": "Height",
          "coding": [
            {
              "system": "http://loinc.org",
              "code": "8302-2"
            }
          ]
        },
        "encounter": {
          "reference": "Encounter/129837645"
        },
        "valueQuantity": {
          "code": "cm",
          "system": "http://unitsofmeasure.org",
          "value": 164,
          "unit": "cm"
        },
        "resourceType": "Observation",
        "_id": "nb5HgRNbyKyfxFgef",
        "_document": {
          "category": {
            "text": "Vital Signs",
            "coding": [
              {
                "system": "http://hl7.org/fhir/observation-category",
                "code": "vital-signs"
              }
            ]
          },
          "issued": "2017-10-18T00:00:00Z",
          "status": "final",
          "id": "162467",
          "code": {
            "text": "Height",
            "coding": [
              {
                "system": "http://loinc.org",
                "code": "8302-2"
              }
            ]
          },
          "encounter": {
            "reference": "Encounter/129837645"
          },
          "valueQuantity": {
            "code": "cm",
            "system": "http://unitsofmeasure.org",
            "value": 164,
            "unit": "cm"
          },
          "resourceType": "Observation",
          "_id": "nb5HgRNbyKyfxFgef"
        }
      }
    },
    {
      "fullUrl": "/Observation/YBKfvqpPEfpj8uXrT",
      "resource": {
        "category": {
          "text": "Vital Signs",
          "coding": [
            {
              "system": "http://hl7.org/fhir/observation-category",
              "code": "vital-signs"
            }
          ]
        },
        "issued": "2017-10-18T00:00:00Z",
        "status": "final",
        "id": "43465",
        "code": {
          "text": "BMI-body mass index",
          "coding": [
            {
              "system": "http://loinc.org",
              "code": "39156-5"
            }
          ]
        },
        "encounter": {
          "reference": "Encounter/129837645"
        },
        "valueQuantity": {
          "code": "kg/m^2",
          "system": "http://unitsofmeasure.org",
          "value": 26.6,
          "unit": "kg/m^2"
        },
        "resourceType": "Observation",
        "_id": "YBKfvqpPEfpj8uXrT",
        "_document": {
          "category": {
            "text": "Vital Signs",
            "coding": [
              {
                "system": "http://hl7.org/fhir/observation-category",
                "code": "vital-signs"
              }
            ]
          },
          "issued": "2017-10-18T00:00:00Z",
          "status": "final",
          "id": "43465",
          "code": {
            "text": "BMI-body mass index",
            "coding": [
              {
                "system": "http://loinc.org",
                "code": "39156-5"
              }
            ]
          },
          "encounter": {
            "reference": "Encounter/129837645"
          },
          "valueQuantity": {
            "code": "kg/m^2",
            "system": "http://unitsofmeasure.org",
            "value": 26.6,
            "unit": "kg/m^2"
          },
          "resourceType": "Observation",
          "_id": "YBKfvqpPEfpj8uXrT"
        }
      }
    },
    {
      "fullUrl": "/Observation/QJAJeKkiTEEuDC8aQ",
      "resource": {
        "category": {
          "text": "Vital Signs",
          "coding": [
            {
              "system": "http://hl7.org/fhir/observation-category",
              "code": "vital-signs"
            }
          ]
        },
        "issued": "2017-10-18T00:00:00Z",
        "status": "final",
        "id": "1423546",
        "code": {
          "text": "Temperature",
          "coding": [
            {
              "system": "http://loinc.org",
              "code": "8310-5"
            }
          ]
        },
        "encounter": {
          "reference": "Encounter/129837645"
        },
        "valueQuantity": {
          "code": "Cel",
          "system": "http://unitsofmeasure.org",
          "value": 37.4,
          "unit": "Cel"
        },
        "resourceType": "Observation",
        "_id": "QJAJeKkiTEEuDC8aQ",
        "_document": {
          "category": {
            "text": "Vital Signs",
            "coding": [
              {
                "system": "http://hl7.org/fhir/observation-category",
                "code": "vital-signs"
              }
            ]
          },
          "issued": "2017-10-18T00:00:00Z",
          "status": "final",
          "id": "1423546",
          "code": {
            "text": "Temperature",
            "coding": [
              {
                "system": "http://loinc.org",
                "code": "8310-5"
              }
            ]
          },
          "encounter": {
            "reference": "Encounter/129837645"
          },
          "valueQuantity": {
            "code": "Cel",
            "system": "http://unitsofmeasure.org",
            "value": 37.4,
            "unit": "Cel"
          },
          "resourceType": "Observation",
          "_id": "QJAJeKkiTEEuDC8aQ"
        }
      }
    },
    {
      "fullUrl": "/Observation/i9X9bZvvmRr6HKZPt",
      "resource": {
        "category": {
          "text": "Vital Signs",
          "coding": [
            {
              "system": "http://hl7.org/fhir/observation-category",
              "code": "vital-signs"
            }
          ]
        },
        "issued": "2017-10-18T00:00:00Z",
        "status": "final",
        "id": "13247837",
        "code": {
          "text": "Respiratory Rate",
          "coding": [
            {
              "system": "http://loinc.org",
              "code": "9279-1"
            }
          ]
        },
        "encounter": {
          "reference": "Encounter/129837645"
        },
        "valueQuantity": {
          "code": "/min",
          "system": "http://unitsofmeasure.org",
          "value": 22,
          "unit": "/min"
        },
        "resourceType": "Observation",
        "_id": "i9X9bZvvmRr6HKZPt",
        "_document": {
          "category": {
            "text": "Vital Signs",
            "coding": [
              {
                "system": "http://hl7.org/fhir/observation-category",
                "code": "vital-signs"
              }
            ]
          },
          "issued": "2017-10-18T00:00:00Z",
          "status": "final",
          "id": "13247837",
          "code": {
            "text": "Respiratory Rate",
            "coding": [
              {
                "system": "http://loinc.org",
                "code": "9279-1"
              }
            ]
          },
          "encounter": {
            "reference": "Encounter/129837645"
          },
          "valueQuantity": {
            "code": "/min",
            "system": "http://unitsofmeasure.org",
            "value": 22,
            "unit": "/min"
          },
          "resourceType": "Observation",
          "_id": "i9X9bZvvmRr6HKZPt"
        }
      }
    },
    {
      "fullUrl": "/Person/GbqivFBcR3abfRDaW",
      "resource": {
        "_id": "GbqivFBcR3abfRDaW",
        "identifier": [
          {
            "value": "newsletter"
          },
          {
            "value": "fhir-training"
          },
          {
            "value": "consulting"
          },
          {
            "value": "product-demo"
          }
        ],
        "name": [
          {
            "text": "Edward Yurcisin"
          }
        ],
        "telecom": [
          {
            "system": "email",
            "value": "edward.yurcisin@carejourney.com"
          },
          {
            "system": "phone",
            "value": "2027349271"
          },
          {
            "system": "linkedin"
          }
        ],
        "managingOrganization": {
          "display": "CareJourney"
        },
        "resourceType": "Person",
        "_document": {
          "_id": "GbqivFBcR3abfRDaW",
          "identifier": [
            {
              "value": "newsletter"
            },
            {
              "value": "fhir-training"
            },
            {
              "value": "consulting"
            },
            {
              "value": "product-demo"
            }
          ],
          "name": [
            {
              "text": "Edward Yurcisin"
            }
          ],
          "telecom": [
            {
              "system": "email",
              "value": "edward.yurcisin@carejourney.com"
            },
            {
              "system": "phone",
              "value": "2027349271"
            },
            {
              "system": "linkedin"
            }
          ],
          "managingOrganization": {
            "display": "CareJourney"
          },
          "resourceType": "Person"
        }
      }
    },
    {
      "fullUrl": "/Person/MZdiqjPJ9yHoEQLEb",
      "resource": {
        "_id": "MZdiqjPJ9yHoEQLEb",
        "identifier": [
          {
            "value": "newsletter"
          },
          {
            "value": "fhir-training"
          }
        ],
        "name": [
          {
            "text": "Jessica Argonaut",
            "resourceType": "HumanName"
          }
        ],
        "telecom": [
          {
            "system": "email",
            "value": "awatson1978@gmail.com",
            "resourceType": "ContactPoint"
          },
          {
            "system": "phone",
            "value": "212-555-1010",
            "resourceType": "ContactPoint"
          },
          {
            "system": "linkedin",
            "resourceType": "ContactPoint"
          }
        ],
        "managingOrganization": {},
        "resourceType": "Person",
        "_document": {
          "_id": "MZdiqjPJ9yHoEQLEb",
          "identifier": [
            {
              "value": "newsletter"
            },
            {
              "value": "fhir-training"
            }
          ],
          "name": [
            {
              "text": "Jessica Argonaut",
              "resourceType": "HumanName"
            }
          ],
          "telecom": [
            {
              "system": "email",
              "value": "awatson1978@gmail.com",
              "resourceType": "ContactPoint"
            },
            {
              "system": "phone",
              "value": "212-555-1010",
              "resourceType": "ContactPoint"
            },
            {
              "system": "linkedin",
              "resourceType": "ContactPoint"
            }
          ],
          "managingOrganization": {},
          "resourceType": "Person"
        }
      }
    },
    {
      "fullUrl": "/Person/BqwAXoY7mYAdrqF75",
      "resource": {
        "_id": "BqwAXoY7mYAdrqF75",
        "identifier": [
          {
            "value": "newsletter"
          },
          {
            "value": "fhir-training"
          }
        ],
        "name": [
          {
            "text": "Jessica Argonaut",
            "resourceType": "HumanName"
          }
        ],
        "telecom": [
          {
            "system": "email",
            "value": "awatson1978@gmail.com",
            "resourceType": "ContactPoint"
          },
          {
            "system": "phone",
            "value": "212-555-1010",
            "resourceType": "ContactPoint"
          },
          {
            "system": "linkedin",
            "resourceType": "ContactPoint"
          }
        ],
        "managingOrganization": {},
        "resourceType": "Person",
        "_document": {
          "_id": "BqwAXoY7mYAdrqF75",
          "identifier": [
            {
              "value": "newsletter"
            },
            {
              "value": "fhir-training"
            }
          ],
          "name": [
            {
              "text": "Jessica Argonaut",
              "resourceType": "HumanName"
            }
          ],
          "telecom": [
            {
              "system": "email",
              "value": "awatson1978@gmail.com",
              "resourceType": "ContactPoint"
            },
            {
              "system": "phone",
              "value": "212-555-1010",
              "resourceType": "ContactPoint"
            },
            {
              "system": "linkedin",
              "resourceType": "ContactPoint"
            }
          ],
          "managingOrganization": {},
          "resourceType": "Person"
        }
      }
    },
    {
      "fullUrl": "/Person/2XegT9QZqH8Ws8nLw",
      "resource": {
        "_id": "2XegT9QZqH8Ws8nLw",
        "identifier": [
          {
            "value": "newsletter"
          },
          {
            "value": "announcements"
          }
        ],
        "name": [
          {
            "text": "Jason Argonaut",
            "resourceType": "HumanName"
          }
        ],
        "telecom": [
          {
            "system": "email",
            "value": "jason@acme.com",
            "resourceType": "ContactPoint"
          },
          {
            "system": "phone",
            "value": "212-555-2020",
            "resourceType": "ContactPoint"
          },
          {
            "system": "linkedin",
            "resourceType": "ContactPoint"
          }
        ],
        "managingOrganization": {},
        "resourceType": "Person",
        "_document": {
          "_id": "2XegT9QZqH8Ws8nLw",
          "identifier": [
            {
              "value": "newsletter"
            },
            {
              "value": "announcements"
            }
          ],
          "name": [
            {
              "text": "Jason Argonaut",
              "resourceType": "HumanName"
            }
          ],
          "telecom": [
            {
              "system": "email",
              "value": "jason@acme.com",
              "resourceType": "ContactPoint"
            },
            {
              "system": "phone",
              "value": "212-555-2020",
              "resourceType": "ContactPoint"
            },
            {
              "system": "linkedin",
              "resourceType": "ContactPoint"
            }
          ],
          "managingOrganization": {},
          "resourceType": "Person"
        }
      }
    },
    {
      "fullUrl": "/Person/nyHfmMQtWdEdJDfnZ",
      "resource": {
        "_id": "nyHfmMQtWdEdJDfnZ",
        "identifier": [
          {
            "value": "newsletter"
          },
          {
            "value": "announcements"
          }
        ],
        "name": [
          {
            "text": "Jason Argo",
            "resourceType": "HumanName"
          }
        ],
        "telecom": [
          {
            "system": "email",
            "value": "jason@acme.com",
            "resourceType": "ContactPoint"
          },
          {
            "system": "phone",
            "value": "212-555-2020",
            "resourceType": "ContactPoint"
          },
          {
            "system": "linkedin",
            "resourceType": "ContactPoint"
          }
        ],
        "managingOrganization": {},
        "resourceType": "Person",
        "_document": {
          "_id": "nyHfmMQtWdEdJDfnZ",
          "identifier": [
            {
              "value": "newsletter"
            },
            {
              "value": "announcements"
            }
          ],
          "name": [
            {
              "text": "Jason Argo",
              "resourceType": "HumanName"
            }
          ],
          "telecom": [
            {
              "system": "email",
              "value": "jason@acme.com",
              "resourceType": "ContactPoint"
            },
            {
              "system": "phone",
              "value": "212-555-2020",
              "resourceType": "ContactPoint"
            },
            {
              "system": "linkedin",
              "resourceType": "ContactPoint"
            }
          ],
          "managingOrganization": {},
          "resourceType": "Person"
        }
      }
    },
    {
      "fullUrl": "/Procedure/rMdhmJoWNTfNahvbP",
      "resource": {
        "code": {
          "text": "Appendectomy",
          "coding": [
            {
              "system": "http://snomed.info/sct",
              "code": "80146002"
            }
          ]
        },
        "id": "9",
        "performedDateTime": "2007-05-25",
        "resourceType": "Procedure",
        "status": "completed",
        "subject": {
          "display": "Candace Salinas",
          "reference": "Patient/1"
        },
        "_id": "rMdhmJoWNTfNahvbP",
        "_document": {
          "code": {
            "text": "Appendectomy",
            "coding": [
              {
                "system": "http://snomed.info/sct",
                "code": "80146002"
              }
            ]
          },
          "id": "9",
          "performedDateTime": "2007-05-25",
          "resourceType": "Procedure",
          "status": "completed",
          "subject": {
            "display": "Candace Salinas",
            "reference": "Patient/1"
          },
          "_id": "rMdhmJoWNTfNahvbP"
        }
      }
    },
    {
      "fullUrl": "/Procedure/zkgLaquFrwx6ka5ey",
      "resource": {
        "performedDateTime": "2014-06-09",
        "status": "completed",
        "id": "10",
        "code": {
          "text": "ACL repair",
          "coding": [
            {
              "display": "Repair of anterior cruciate ligament of knee joint (procedure)",
              "system": "http://snomed.info/sct",
              "code": "239426007"
            }
          ]
        },
        "encounter": {
          "reference": "Encounter/2089375"
        },
        "subject": {
          "display": "Candace Salinas",
          "reference": "Patient/1"
        },
        "resourceType": "Procedure",
        "_id": "zkgLaquFrwx6ka5ey",
        "_document": {
          "performedDateTime": "2014-06-09",
          "status": "completed",
          "id": "10",
          "code": {
            "text": "ACL repair",
            "coding": [
              {
                "display": "Repair of anterior cruciate ligament of knee joint (procedure)",
                "system": "http://snomed.info/sct",
                "code": "239426007"
              }
            ]
          },
          "encounter": {
            "reference": "Encounter/2089375"
          },
          "subject": {
            "display": "Candace Salinas",
            "reference": "Patient/1"
          },
          "resourceType": "Procedure",
          "_id": "zkgLaquFrwx6ka5ey"
        }
      }
    },
    {
      "fullUrl": "/Procedure/jbBiX7YMeQ6KXd3py",
      "resource": {
        "performedDateTime": "2017-10-18",
        "status": "completed",
        "id": "223468",
        "code": {
          "text": "Ultrasound Abdomen",
          "coding": [
            {
              "display": "Ultrasound scan of lower abdomen (procedure)",
              "system": "http://snomed.info/sct",
              "code": "420052009"
            }
          ]
        },
        "encounter": {
          "reference": "Encounter/129837645"
        },
        "performer": [
          {
            "actor": {
              "display": "Altick Kelly, MD",
              "reference": "Practitioner/8"
            },
            "role": {
              "coding": [
                {
                  "display": "Gynecologist",
                  "system": "http://snomed.info/sct",
                  "code": "83685006"
                }
              ]
            }
          }
        ],
        "resourceType": "Procedure",
        "_id": "jbBiX7YMeQ6KXd3py",
        "_document": {
          "performedDateTime": "2017-10-18",
          "status": "completed",
          "id": "223468",
          "code": {
            "text": "Ultrasound Abdomen",
            "coding": [
              {
                "display": "Ultrasound scan of lower abdomen (procedure)",
                "system": "http://snomed.info/sct",
                "code": "420052009"
              }
            ]
          },
          "encounter": {
            "reference": "Encounter/129837645"
          },
          "performer": [
            {
              "actor": {
                "display": "Altick Kelly, MD",
                "reference": "Practitioner/8"
              },
              "role": {
                "coding": [
                  {
                    "display": "Gynecologist",
                    "system": "http://snomed.info/sct",
                    "code": "83685006"
                  }
                ]
              }
            }
          ],
          "resourceType": "Procedure",
          "_id": "jbBiX7YMeQ6KXd3py"
        }
      }
    }
  ]
}